File: xrd.txt
Sample	ANC IV
Comments
Filename	C:\Users\SR\Desktop\KV257~1.18\ANCIV_~1.ASC
Goniometer	MiniFlex 300/600 +
Attachment	Standard Sample Holder
Monochromater	None
10	1218.33
10.06	1115
10.12	1225
10.18	1211.67
10.24	1193.33
10.3	1165
10.36	1170
10.42	1193.33
10.48	1156.67
10.54	1185
10.6	1213.33
10.66	1171.67
10.72	1231.67
10.78	1118.33
10.84	1040
10.9	1131.67
10.96	1135
11.02	1011.67
11.08	1101.67
11.14	1088.33
11.2	1071.67
11.26	1088.33
11.32	1115
11.38	1040
11.44	1098.33
11.5	1076.67
11.56	1113.33
11.62	1066.67
11.68	1110
11.74	1105
11.8	1080
11.86	1043.33
11.92	1080
11.98	1095
12.04	1061.67
12.1	1085
12.16	1153.33
12.22	1048.33
12.28	1101.67
12.34	1076.67
12.4	1068.33
12.46	1035
12.52	1063.33
12.58	1001.67
12.64	1026.67
12.7	1013.33
12.76	1058.33
12.82	983.333
12.88	1001.67
12.94	1070
13	1015
13.06	1081.67
13.12	963.333
13.18	968.333
13.24	948.333
13.3	1013.33
13.36	998.333
13.42	990
13.48	985
13.54	990
13.6	965
13.66	1013.33
13.72	1000
13.78	973.333
13.84	961.667
13.9	938.333
13.96	953.333
14.02	923.333
14.08	950
14.14	925
14.2	903.333
14.26	931.667
14.32	995
14.38	936.667
14.44	890
14.5	941.667
14.56	945
14.62	900
14.68	908.333
14.74	948.333
14.8	883.333
14.86	886.667
14.92	905
14.98	918.333
15.04	846.667
15.1	890
15.16	861.667
15.22	863.333
15.28	913.333
15.34	875
15.4	891.667
15.46	920
15.52	848.333
15.58	901.667
15.64	871.667
15.7	858.333
15.76	861.667
15.82	856.667
15.88	828.333
15.94	821.667
16	811.667
16.06	806.667
16.12	861.667
16.18	825
16.24	815
16.3	833.333
16.36	845
16.42	841.667
16.48	846.667
16.54	831.667
16.6	771.667
16.66	831.667
16.72	778.333
16.78	826.667
16.84	811.667
16.9	795
16.96	755
17.02	781.667
17.08	811.667
17.14	778.333
17.2	815
17.26	765
17.32	770
17.38	771.667
17.44	796.667
17.5	780
17.56	830
17.62	760
17.68	773.333
17.74	806.667
17.8	810
17.86	733.333
17.92	785
17.98	773.333
18.04	766.667
18.1	776.667
18.16	780
18.22	731.667
18.28	775
18.34	771.667
18.4	771.667
18.46	778.333
18.52	818.333
18.58	738.333
18.64	798.333
18.7	750
18.76	800
18.82	775
18.88	813.333
18.94	778.333
19	758.333
19.06	778.333
19.12	783.333
19.18	760
19.24	771.667
19.3	808.333
19.36	798.333
19.42	868.333
19.48	860
19.54	820
19.6	788.333
19.66	791.667
19.72	748.333
19.78	726.667
19.84	796.667
19.9	815
19.96	818.333
20.02	785
20.08	788.333
20.14	741.667
20.2	750
20.26	730
20.32	720
20.38	726.667
20.44	755
20.5	753.333
20.56	748.333
20.62	733.333
20.68	746.667
20.74	745
20.8	736.667
20.86	758.333
20.92	726.667
20.98	763.333
21.04	758.333
21.1	760
21.16	708.333
21.22	748.333
21.28	733.333
21.34	746.667
21.4	788.333
21.46	756.667
21.52	808.333
21.58	761.667
21.64	768.333
21.7	765
21.76	800
21.82	855
21.88	833.333
21.94	866.667
22	926.667
22.06	866.667
22.12	888.333
22.18	915
22.24	883.333
22.3	828.333
22.36	843.333
22.42	818.333
22.48	805
22.54	756.667
22.6	783.333
22.66	835
22.72	786.667
22.78	741.667
22.84	796.667
22.9	776.667
22.96	796.667
23.02	758.333
23.08	783.333
23.14	728.333
23.2	781.667
23.26	771.667
23.32	783.333
23.38	871.667
23.44	815
23.5	886.667
23.56	838.333
23.62	961.667
23.68	1061.67
23.74	1375
23.8	1736.67
23.86	2396.67
23.92	2483.33
23.98	1976.67
24.04	1378.33
24.1	1255
24.16	1326.67
24.22	1498.33
24.28	1735
24.34	1613.33
24.4	1291.67
24.46	986.667
24.52	876.667
24.58	806.667
24.64	743.333
24.7	800
24.76	730
24.82	780
24.88	851.667
24.94	770
25	820
25.06	770
25.12	778.333
25.18	778.333
25.24	761.667
25.3	791.667
25.36	785
25.42	733.333
25.48	698.333
25.54	773.333
25.6	763.333
25.66	736.667
25.72	751.667
25.78	706.667
25.84	771.667
25.9	775
25.96	795
26.02	786.667
26.08	790
26.14	821.667
26.2	776.667
26.26	778.333
26.32	815
26.38	841.667
26.44	775
26.5	745
26.56	776.667
26.62	741.667
26.68	783.333
26.74	730
26.8	741.667
26.86	800
26.92	740
26.98	828.333
27.04	708.333
27.1	765
27.16	811.667
27.22	751.667
27.28	800
27.34	865
27.4	896.667
27.46	856.667
27.52	890
27.58	998.333
27.64	1161.67
27.7	1203.33
27.76	1206.67
27.82	1080
27.88	1023.33
27.94	971.667
28	943.333
28.06	926.667
28.12	885
28.18	881.667
28.24	890
28.3	913.333
28.36	838.333
28.42	798.333
28.48	823.333
28.54	838.333
28.6	898.333
28.66	850
28.72	841.667
28.78	815
28.84	830
28.9	833.333
28.96	821.667
29.02	856.667
29.08	861.667
29.14	843.333
29.2	856.667
29.26	846.667
29.32	831.667
29.38	851.667
29.44	901.667
29.5	933.333
29.56	963.333
29.62	888.333
29.68	855
29.74	906.667
29.8	893.333
29.86	873.333
29.92	833.333
29.98	825
30.04	911.667
30.1	871.667
30.16	938.333
30.22	915
30.28	958.333
30.34	968.333
30.4	885
30.46	930
30.52	913.333
30.58	965
30.64	906.667
30.7	948.333
30.76	1026.67
30.82	978.333
30.88	975
30.94	1016.67
31	1163.33
31.06	1153.33
31.12	1265
31.18	1445
31.24	1495
31.3	1725
31.36	1761.67
31.42	1846.67
31.48	1781.67
31.54	1765
31.6	1730
31.66	1611.67
31.72	1440
31.78	1436.67
31.84	1298.33
31.9	1185
31.96	1165
32.02	1113.33
32.08	988.333
32.14	916.667
32.2	931.667
32.26	916.667
32.32	903.333
32.38	863.333
32.44	935
32.5	953.333
32.56	1016.67
32.62	943.333
32.68	876.667
32.74	960
32.8	936.667
32.86	998.333
32.92	1006.67
32.98	993.333
33.04	945
33.1	995
33.16	995
33.22	960
33.28	916.667
33.34	950
33.4	888.333
33.46	856.667
33.52	890
33.58	948.333
33.64	931.667
33.7	1016.67
33.76	1123.33
33.82	1053.33
33.88	1061.67
33.94	976.667
34	1186.67
34.06	1335
34.12	1333.33
34.18	1165
34.24	1103.33
34.3	1110
34.36	1141.67
34.42	1195
34.48	1093.33
34.54	1191.67
34.6	1261.67
34.66	1173.33
34.72	1080
34.78	910
34.84	846.667
34.9	848.333
34.96	830
35.02	811.667
35.08	848.333
35.14	858.333
35.2	861.667
35.26	853.333
35.32	866.667
35.38	783.333
35.44	848.333
35.5	876.667
35.56	776.667
35.62	906.667
35.68	811.667
35.74	813.333
35.8	813.333
35.86	858.333
35.92	795
35.98	776.667
36.04	768.333
36.1	823.333
36.16	865
36.22	905
36.28	835
36.34	898.333
36.4	851.667
36.46	796.667
36.52	790
36.58	875
36.64	865
36.7	850
36.76	865
36.82	818.333
36.88	813.333
36.94	801.667
37	813.333
37.06	833.333
37.12	760
37.18	763.333
37.24	730
37.3	775
37.36	771.667
37.42	773.333
37.48	793.333
37.54	721.667
37.6	835
37.66	833.333
37.72	796.667
37.78	761.667
37.84	741.667
37.9	726.667
37.96	751.667
38.02	748.333
38.08	803.333
38.14	775
38.2	763.333
38.26	775
38.32	791.667
38.38	836.667
38.44	895
38.5	876.667
38.56	841.667
38.62	963.333
38.68	970
38.74	921.667
38.8	970
38.86	961.667
38.92	885
38.98	896.667
39.04	890
39.1	831.667
39.16	806.667
39.22	810
39.28	830
39.34	780
39.4	808.333
39.46	855
39.52	875
39.58	796.667
39.64	778.333
39.7	718.333
39.76	738.333
39.82	790
39.88	818.333
39.94	806.667
40	741.667
40.06	788.333
40.12	765
40.18	835
40.24	855
40.3	808.333
40.36	828.333
40.42	823.333
40.48	828.333
40.54	878.333
40.6	921.667
40.66	863.333
40.72	836.667
40.78	798.333
40.84	783.333
40.9	816.667
40.96	733.333
41.02	775
41.08	785
41.14	731.667
41.2	785
41.26	795
41.32	790
41.38	721.667
41.44	826.667
41.5	783.333
41.56	761.667
41.62	771.667
41.68	733.333
41.74	843.333
41.8	851.667
41.86	890
41.92	1026.67
41.98	1245
42.04	1201.67
42.1	1085
42.16	986.667
42.22	906.667
42.28	765
42.34	798.333
42.4	761.667
42.46	756.667
42.52	796.667
42.58	741.667
42.64	775
42.7	765
42.76	786.667
42.82	778.333
42.88	830
42.94	853.333
43	996.667
43.06	930
43.12	911.667
43.18	833.333
43.24	826.667
43.3	765
43.36	770
43.42	725
43.48	741.667
43.54	710
43.6	803.333
43.66	798.333
43.72	751.667
43.78	721.667
43.84	785
43.9	736.667
43.96	753.333
44.02	813.333
44.08	896.667
44.14	900
44.2	970
44.26	965
44.32	895
44.38	928.333
44.44	860
44.5	870
44.56	850
44.62	870
44.68	906.667
44.74	1086.67
44.8	1080
44.86	1285
44.92	1265
44.98	1271.67
45.04	1158.33
45.1	1110
45.16	978.333
45.22	961.667
45.28	923.333
45.34	1011.67
45.4	920
45.46	925
45.52	895
45.58	916.667
45.64	793.333
45.7	790
45.76	805
45.82	748.333
45.88	818.333
45.94	830
46	808.333
46.06	781.667
46.12	801.667
46.18	718.333
46.24	743.333
46.3	770
46.36	806.667
46.42	828.333
46.48	825
46.54	888.333
46.6	891.667
46.66	921.667
46.72	1068.33
46.78	1091.67
46.84	1140
46.9	1070
46.96	1026.67
47.02	976.667
47.08	925
47.14	850
47.2	855
47.26	885
47.32	840
47.38	860
47.44	783.333
47.5	840
47.56	750
47.62	775
47.68	755
47.74	753.333
47.8	730
47.86	771.667
47.92	708.333
47.98	753.333
48.04	758.333
48.1	771.667
48.16	760
48.22	723.333
48.28	708.333
48.34	716.667
48.4	725
48.46	706.667
48.52	685
48.58	678.333
48.64	741.667
48.7	695
48.76	758.333
48.82	776.667
48.88	751.667
48.94	775
49	756.667
49.06	716.667
49.12	710
49.18	706.667
49.24	698.333
49.3	735
49.36	761.667
49.42	700
49.48	683.333
49.54	740
49.6	726.667
49.66	765
49.72	745
49.78	733.333
49.84	743.333
49.9	791.667
49.96	735
50.02	770
50.08	736.667
50.14	711.667
50.2	686.667
50.26	723.333
50.32	761.667
50.38	766.667
50.44	766.667
50.5	760
50.56	765
50.62	760
50.68	778.333
50.74	745
50.8	756.667
50.86	776.667
50.92	723.333
50.98	771.667
51.04	761.667
51.1	741.667
51.16	731.667
51.22	781.667
51.28	715
51.34	788.333
51.4	708.333
51.46	633.333
51.52	735
51.58	750
51.64	693.333
51.7	691.667
51.76	673.333
51.82	715
51.88	716.667
51.94	723.333
52	688.333
52.06	710
52.12	720
52.18	683.333
52.24	695
52.3	708.333
52.36	761.667
52.42	708.333
52.48	701.667
52.54	716.667
52.6	731.667
52.66	725
52.72	696.667
52.78	720
52.84	705
52.9	693.333
52.96	710
53.02	775
53.08	740
53.14	713.333
53.2	748.333
53.26	713.333
53.32	776.667
53.38	755
53.44	711.667
53.5	798.333
53.56	735
53.62	775
53.68	776.667
53.74	805
53.8	783.333
53.86	768.333
53.92	755
53.98	788.333
54.04	733.333
54.1	746.667
54.16	760
54.22	761.667
54.28	758.333
54.34	783.333
54.4	745
54.46	748.333
54.52	755
54.58	783.333
54.64	798.333
54.7	891.667
54.76	826.667
54.82	798.333
54.88	801.667
54.94	806.667
55	806.667
55.06	791.667
55.12	798.333
55.18	841.667
55.24	825
55.3	796.667
55.36	765
55.42	810
55.48	855
55.54	890
55.6	935
55.66	950
55.72	1095
55.78	970
55.84	998.333
55.9	1015
55.96	975
56.02	923.333
56.08	936.667
56.14	1000
56.2	993.333
56.26	996.667
56.32	983.333
56.38	1015
56.44	973.333
56.5	928.333
56.56	900
56.62	848.333
56.68	866.667
56.74	815
56.8	856.667
56.86	815
56.92	823.333
56.98	833.333
57.04	873.333
57.1	751.667
57.16	726.667
57.22	756.667
57.28	815
57.34	761.667
57.4	705
57.46	770
57.52	770
57.58	848.333
57.64	676.667
57.7	678.333
57.76	710
57.82	785
57.88	766.667
57.94	771.667
58	765
58.06	788.333
58.12	735
58.18	791.667
58.24	673.333
58.3	673.333
58.36	783.333
58.42	771.667
58.48	776.667
58.54	740
58.6	756.667
58.66	795
58.72	728.333
58.78	798.333
58.84	720
58.9	796.667
58.96	773.333
59.02	805
59.08	811.667
59.14	841.667
59.2	805
59.26	780
59.32	763.333
59.38	778.333
59.44	753.333
59.5	791.667
59.56	738.333
59.62	731.667
59.68	718.333
59.74	810
59.8	776.667
59.86	723.333
59.92	711.667
59.98	696.667
60.04	741.667
60.1	715
60.16	718.333
60.22	711.667
60.28	711.667
60.34	698.333
60.4	743.333
60.46	720
60.52	741.667
60.58	716.667
60.64	758.333
60.7	791.667
60.76	751.667
60.82	828.333
60.88	758.333
60.94	781.667
61	811.667
61.06	836.667
61.12	781.667
61.18	771.667
61.24	826.667
61.3	766.667
61.36	686.667
61.42	748.333
61.48	751.667
61.54	806.667
61.6	800
61.66	725
61.72	766.667
61.78	781.667
61.84	736.667
61.9	741.667
61.96	735
62.02	718.333
62.08	811.667
62.14	741.667
62.2	801.667
62.26	771.667
62.32	768.333
62.38	783.333
62.44	761.667
62.5	745
62.56	808.333
62.62	801.667
62.68	781.667
62.74	736.667
62.8	775
62.86	760
62.92	798.333
62.98	755
63.04	730
63.1	776.667
63.16	760
63.22	760
63.28	746.667
63.34	760
63.4	693.333
63.46	736.667
63.52	736.667
63.58	745
63.64	716.667
63.7	771.667
63.76	720
63.82	703.333
63.88	766.667
63.94	710
64	795
64.06	775
64.12	760
64.18	771.667
64.24	715
64.3	736.667
64.36	695
64.42	728.333
64.48	795
64.54	736.667
64.6	663.333
64.66	738.333
64.72	781.667
64.78	760
64.84	781.667
64.9	725
64.96	743.333
65.02	753.333
65.08	803.333
65.14	796.667
65.2	766.667
65.26	785
65.32	758.333
65.38	843.333
65.44	801.667
65.5	785
65.56	810
65.62	860
65.68	835
65.74	785
65.8	826.667
65.86	841.667
65.92	825
65.98	768.333
66.04	748.333
66.1	810
66.16	748.333
66.22	760
66.28	743.333
66.34	701.667
66.4	755
66.46	745
66.52	680
66.58	740
66.64	750
66.7	730
66.76	713.333
66.82	725
66.88	726.667
66.94	745
67	743.333
67.06	740
67.12	775
67.18	691.667
67.24	721.667
67.3	741.667
67.36	700
67.42	745
67.48	708.333
67.54	736.667
67.6	736.667
67.66	686.667
67.72	680
67.78	716.667
67.84	743.333
67.9	750
67.96	751.667
68.02	790
68.08	813.333
68.14	855
68.2	853.333
68.26	770
68.32	863.333
68.38	795
68.44	755
68.5	795
68.56	793.333
68.62	758.333
68.68	728.333
68.74	746.667
68.8	771.667
68.86	785
68.92	741.667
68.98	765
69.04	728.333
69.1	688.333
69.16	755
69.22	786.667
69.28	715
69.34	728.333
69.4	770
69.46	771.667
69.52	773.333
69.58	823.333
69.64	798.333
69.7	828.333
69.76	835
69.82	790
69.88	800
69.94	760
70	775
70.06	811.667
70.12	758.333
70.18	788.333
70.24	721.667
70.3	713.333
70.36	826.667
70.42	756.667
70.48	745
70.54	740
70.6	715
70.66	746.667
70.72	810
70.78	858.333
70.84	788.333
70.9	771.667
70.96	771.667
71.02	793.333
71.08	783.333
71.14	778.333
71.2	758.333
71.26	801.667
71.32	738.333
71.38	725
71.44	720
71.5	716.667
71.56	705
71.62	736.667
71.68	706.667
71.74	716.667
71.8	700
71.86	751.667
71.92	696.667
71.98	728.333
72.04	703.333
72.1	701.667
72.16	753.333
72.22	735
72.28	695
72.34	671.667
72.4	718.333
72.46	720
72.52	625
72.58	761.667
72.64	666.667
72.7	735
72.76	728.333
72.82	705
72.88	701.667
72.94	765
73	738.333
73.06	741.667
73.12	720
73.18	755
73.24	720
73.3	716.667
73.36	706.667
73.42	710
73.48	685
73.54	733.333
73.6	691.667
73.66	653.333
73.72	753.333
73.78	668.333
73.84	746.667
73.9	710
73.96	738.333
74.02	726.667
74.08	750
74.14	740
74.2	701.667
74.26	696.667
74.32	745
74.38	725
74.44	753.333
74.5	748.333
74.56	753.333
74.62	700
74.68	795
74.74	751.667
74.8	778.333
74.86	756.667
74.92	765
74.98	725
75.04	740
75.1	755
75.16	745
75.22	793.333
75.28	730
75.34	698.333
75.4	756.667
75.46	715
75.52	750
75.58	745
75.64	721.667
75.7	716.667
75.76	770
75.82	708.333
75.88	691.667
75.94	720
76	698.333
76.06	733.333
76.12	738.333
76.18	731.667
76.24	728.333
76.3	690
76.36	746.667
76.42	756.667
76.48	716.667
76.54	766.667
76.6	706.667
76.66	695
76.72	756.667
76.78	693.333
76.84	748.333
76.9	783.333
76.96	766.667
77.02	771.667
77.08	775
77.14	726.667
77.2	801.667
77.26	716.667
77.32	716.667
77.38	745
77.44	793.333
77.5	733.333
77.56	683.333
77.62	703.333
77.68	751.667
77.74	731.667
77.8	746.667
77.86	745
77.92	765
77.98	740
78.04	703.333
78.1	736.667
78.16	738.333
78.22	723.333
78.28	753.333
78.34	730
78.4	708.333
78.46	731.667
78.52	745
78.58	731.667
78.64	710
78.7	713.333
78.76	746.667
78.82	775
78.88	808.333
78.94	703.333
79	745
79.06	793.333
79.12	736.667
79.18	746.667
79.24	765
79.3	743.333
79.36	733.333
79.42	711.667
79.48	740
79.54	703.333
79.6	755
79.66	718.333
79.72	761.667
79.78	725
79.84	753.333
79.9	730
79.96	723.333
80.02	705
80.08	723.333
80.14	680
80.2	700
80.26	680
80.32	723.333
80.38	711.667
80.44	665
80.5	683.333
80.56	748.333
80.62	688.333
80.68	693.333
80.74	690
80.8	705
80.86	703.333
80.92	680
80.98	705
81.04	693.333
81.1	713.333
81.16	716.667
81.22	745
81.28	720
81.34	681.667
81.4	705
81.46	695
81.52	691.667
81.58	715
81.64	715
81.7	715
81.76	741.667
81.82	708.333
81.88	686.667
81.94	696.667
82	683.333
82.06	723.333
82.12	720
82.18	678.333
82.24	685
82.3	730
82.36	728.333
82.42	698.333
82.48	713.333
82.54	728.333
82.6	726.667
82.66	700
82.72	720
82.78	736.667
82.84	733.333
82.9	681.667
82.96	698.333
83.02	756.667
83.08	730
83.14	698.333
83.2	698.333
83.26	708.333
83.32	741.667
83.38	690
83.44	695
83.5	673.333
83.56	736.667
83.62	696.667
83.68	733.333
83.74	758.333
83.8	698.333
83.86	728.333
83.92	733.333
83.98	671.667
84.04	696.667
84.1	721.667
84.16	681.667
84.22	713.333
84.28	708.333
84.34	678.333
84.4	690
84.46	696.667
84.52	726.667
84.58	676.667
84.64	683.333
84.7	720
84.76	663.333
84.82	708.333
84.88	701.667
84.94	730
85	713.333
85.06	720
85.12	718.333
85.18	675
85.24	665
85.3	680
85.36	686.667
85.42	708.333
85.48	663.333
85.54	698.333
85.6	675
85.66	700
85.72	675
85.78	676.667
85.84	725
85.9	695
85.96	673.333
86.02	703.333
86.08	678.333
86.14	720
86.2	685
86.26	698.333
86.32	716.667
86.38	703.333
86.44	730
86.5	693.333
86.56	743.333
86.62	748.333
86.68	746.667
86.74	740
86.8	675
86.86	783.333
86.92	731.667
86.98	716.667
87.04	758.333
87.1	711.667
87.16	781.667
87.22	740
87.28	720
87.34	746.667
87.4	731.667
87.46	716.667
87.52	721.667
87.58	731.667
87.64	645
87.7	676.667
87.76	736.667
87.82	668.333
87.88	673.333
87.94	703.333
88	720
88.06	718.333
88.12	760
88.18	745
88.24	693.333
88.3	701.667
88.36	806.667
88.42	708.333
88.48	720
88.54	776.667
88.6	736.667
88.66	730
88.72	733.333
88.78	738.333
88.84	691.667
88.9	733.333
88.96	725
89.02	708.333
89.08	698.333
89.14	705
89.2	688.333
89.26	786.667
89.32	756.667
89.38	715
89.44	706.667
89.5	681.667
89.56	726.667
89.62	690
89.68	755
89.74	715
89.8	746.667
89.86	755
89.92	743.333
89.98	680
90	680